Folder: AsciiDataFile/Examples/data

Note: Examples/data/20180711_44.0K.txt
Sat Sep 15 19:54:43 2018
[Header]
Column  0 : index               	count
Column  1 : time                	sec
Column  2 : temperature         	K
Column  3 : magneticField       	Oe
Column  4 : current             	A
Column  5 : VH                  	V
Column  6 : VHstd               	V
Column  7 : VR                  	V
Column  8 : VRstd               	V
Column  9 : NOM                 	count
Column 10 : level               	pc
[Header end]

+1.48000000e+02, +3.27597196e+02, +4.40004000e+01, -8.99987810e+04, +1.00000000e-04, +1.12542050e-06, +4.32155554e-09, +1.09157855e-02, +4.63576717e-08, +1.00000000e+01, +6.84000000e+01
+1.49000000e+02, +5.20183006e+02, +4.40001000e+01, -8.49991800e+04, +1.00000000e-04, +1.12584600e-06, +5.13595308e-09, +1.09050531e-02, +3.81692353e-08, +1.00000000e+01, +6.84000000e+01
+1.50000000e+02, +7.19151306e+02, +4.40001000e+01, -7.99992030e+04, +1.00000000e-04, +1.12042600e-06, +2.69076550e-09, +1.08946759e-02, +4.57693743e-08, +1.00000000e+01, +6.84000000e+01
+1.51000000e+02, +9.10499021e+02, +4.39998000e+01, -7.49990310e+04, +1.00000000e-04, +1.11175750e-06, +4.70244418e-09, +1.08847291e-02, +3.80096373e-08, +1.00000000e+01, +6.84000000e+01
+1.52000000e+02, +1.10812021e+03, +4.40001000e+01, -6.99987190e+04, +1.00000000e-04, +1.09824750e-06, +5.58132746e-09, +1.08752515e-02, +5.41547526e-08, +1.00000000e+01, +6.84000000e+01
+1.53000000e+02, +1.29832684e+03, +4.39996000e+01, -6.49991640e+04, +1.00000000e-04, +1.08237450e-06, +5.89193790e-09, +1.08662381e-02, +1.63047087e-08, +1.00000000e+01, +6.84000000e+01
+1.54000000e+02, +1.48871456e+03, +4.40000000e+01, -5.99985700e+04, +1.00000000e-04, +1.05925200e-06, +5.26055282e-09, +1.08577045e-02, +1.39234344e-08, +1.00000000e+01, +6.84000000e+01
+1.55000000e+02, +1.67777593e+03, +4.40000000e+01, -5.49990160e+04, +1.00000000e-04, +1.03559150e-06, +6.00740171e-09, +1.08497216e-02, +3.84037983e-08, +1.00000000e+01, +6.84000000e+01
+1.56000000e+02, +1.86697032e+03, +4.40001000e+01, -4.99989920e+04, +1.00000000e-04, +1.00789700e-06, +5.41830472e-09, +1.08421700e-02, +2.45946951e-08, +1.00000000e+01, +6.84000000e+01
+1.57000000e+02, +2.05618470e+03, +4.39999000e+01, -4.49986800e+04, +1.00000000e-04, +9.75950500e-07, +5.23452073e-09, +1.08352424e-02, +4.11779337e-08, +1.00000000e+01, +6.84000000e+01
+1.58000000e+02, +2.25174754e+03, +4.39998000e+01, -3.99997890e+04, +1.00000000e-04, +9.40559000e-07, +4.09271169e-09, +1.08289035e-02, +4.77124313e-08, +1.00000000e+01, +6.84000000e+01
+1.59000000e+02, +2.43997885e+03, +4.39998000e+01, -3.49989570e+04, +1.00000000e-04, +9.03489000e-07, +3.99050360e-09, +1.08230829e-02, +2.02427302e-08, +1.00000000e+01, +6.84000000e+01
+1.60000000e+02, +2.63547168e+03, +4.39991000e+01, -2.99987870e+04, +1.00000000e-04, +8.61463500e-07, +5.92964166e-09, +1.08179677e-02, +2.62684050e-08, +1.00000000e+01, +6.84000000e+01
+1.61000000e+02, +2.83012245e+03, +4.39994000e+01, -2.49993280e+04, +1.00000000e-04, +8.17331500e-07, +4.6436

Note: Examples/data/test_column.txt
X (s)	Y (m * us / T ** 3)
+0.00000000e+00	+0.00000000e+00
+2.04081633e+00	+8.91559230e-01
+4.08163265e+00	-8.07581691e-01
+6.12244898e+00	-1.60045086e-01
+8.16326531e+00	+9.52551848e-01
+1.02040816e+01	-7.02784220e-01
+1.22448980e+01	-3.15964115e-01
+1.42857143e+01	+9.88987117e-01
+1.63265306e+01	-5.79868557e-01
+1.83673469e+01	-4.63737404e-01
+2.04081633e+01	+9.99925715e-01
+2.24489796e+01	-4.42003541e-01
+2.44897959e+01	-5.99555269e-01
+2.65306122e+01	+9.85085640e-01
+2.85714286e+01	-2.92743414e-01
+3.06122449e+01	-7.19916245e-01
+3.26530612e+01	+9.44849476e-01
+3.46938776e+01	-1.35936189e-01
+3.67346939e+01	-8.21717357e-01
+3.87755102e+01	+8.80254536e-01
+4.08163265e+01	+2.43755515e-02
+4.28571429e+01	-9.02334111e-01
+4.48979592e+01	+7.92966115e-01
+4.69387755e+01	+1.84058876e-01
+4.89795918e+01	-9.59688160e-01
+5.10204082e+01	+6.85234560e-01
+5.30612245e+01	+3.38997054e-01
+5.51020408e+01	-9.92300882e-01
+5.71428571e+01	+5.59837255e-01
+5.91836735e+01	+4.85195688e-01
+6.12244898e+01	-9.99331504e-01
+6.32653061e+01	+4.20007016e-01
+6.53061224e+01	+6.18885691e-01
+6.73469388e+01	-9.80598770e-01
+6.93877551e+01	+2.69348748e-01
+7.14285714e+01	+7.36620456e-01
+7.34693878e+01	-9.36585622e-01
+7.55102041e+01	+1.11746510e-01
+7.75510204e+01	+8.35364713e-01
+7.95918367e+01	-8.68426745e-01
+8.16326531e+01	-4.87366178e-02
+8.36734694e+01	+9.12572774e-01
+8.57142857e+01	-7.77879314e-01
+8.77551020e+01	-2.07963287e-01
+8.97959184e+01	+9.66254172e-01
+9.18367347e+01	-6.67277697e-01
+9.38775510e+01	-3.61828541e-01
+9.59183673e+01	+9.95024968e-01
+9.79591837e+01	-5.39473267e-01
+1.00000000e+02	-5.06365641e-01

Note: Examples/data/test_column_mod.txt
X (s),           Y (m)
-0.00000000e+00, +0.00000000e+00
-2.00400802e-01, +1.99062127e-01
-4.00801603e-01, +3.90156543e-01
-6.01202405e-01, +5.65634452e-01
-8.01603206e-01, +7.18472133e-01
-1.00200401e+00, +8.42552065e-01
-1.20240481e+00, +9.32907792e-01
-1.40280561e+00, +9.85922713e-01
-1.60320641e+00, +9.99474839e-01
-1.80360721e+00, +9.73021730e-01
-2.00400802e+00, +9.07622205e-01
-2.20440882e+00, +8.05893960e-01
-2.40480962e+00, +6.71908799e-01
-2.60521042e+00, +5.11029643e-01
-2.80561122e+00, +3.29695885e-01
-3.00601202e+00, +1.35165635e-01
-3.20641283e+00, -6.47747896e-02
-3.40681363e+00, -2.62122522e-01
-3.60721443e+00, -4.48978471e-01
-3.80761523e+00, -6.17863493e-01
-4.00801603e+00, -7.62017753e-01
-4.20841683e+00, -8.75671295e-01
-4.40881764e+00, -9.54274994e-01
-4.60921844e+00, -9.94682639e-01
-4.80961924e+00, -9.95276861e-01
-5.01002004e+00, -9.56033878e-01
-5.21042084e+00, -8.78524438e-01
-5.41082164e+00, -7.65850954e-01
-5.61122244e+00, -6.22523324e-01
-5.81162325e+00, -4.54278416e-01
-6.01202405e+00, -2.67850444e-01
-6.21242485e+00, -7.07014222e-02
-6.41282565e+00, +1.29277513e-01
-6.61322645e+00, +3.24081954e-01
-6.81362725e+00, +5.05914607e-01
-7.01402806e+00, +6.67497393e-01
-7.21442886e+00, +8.02362758e-01
-7.41482966e+00, +9.05112545e-01
-7.61523046e+00, +9.71634067e-01
-7.81563126e+00, +9.99264715e-01
-8.01603206e+00, +9.86898537e-01
-8.21643287e+00, +9.35030507e-01
-8.41683367e+00, +8.45736706e-01
-8.61723447e+00, +7.22591232e-01
-8.81763527e+00, +5.70523136e-01
-9.01803607e+00, +3.95619136e-01
-9.21843687e+00, +2.04879982e-01
-9.41883768e+00, +5.94025048e-03
-9.61923848e+00, -1.93237247e-01
-9.81963928e+00, -3.84680182e-01
-1.00200401e+01, -5.60725809e-01
-1.02204409e+01, -7.14327682e-01
-1.04208417e+01, -8.39337692e-01
-1.06212425e+01, -9.30752157e-01
-1.08216433e+01, -9.84912098e-01
-1.10220441e+01, -9.99649695e-01
-1.12224449e+01, -9.74375059e-01
-1.14228457e+01, -9.10099837e-01
-1.16232465e+01, -8.09396726e-01
-1.18236473e+01, -6.76296495e-01
-1.20240481e+01, -5.16126647e-01
-1.22244489e+01, -3.35298182e-01
-1.24248497e+01, -1.41048987e-01
-1.26252505e+01, +5.88458713e-02
-1.28256513e+01, +2.56385350e-01
-1.30260521e+01, +4.43662683e-01
-1.32264529e+01, +6.13181860e-01
-1.34268537e+01, +7.58157662e-01
-1.36272545e+01, +8.72787253e-01
-1.38276553e+01, +9.52482438e-01
-1.40280561e+01, +9.94053317e-01
-1.42284569e+01, +9.95835964e-01
-1.44288577e+01, +9.57759025e-01
-1.46292585e+01, +8.81346580e-01
-1.48296593e+01, +7.69657130e-01
-1.50300601e+01, +6.27161188e-01
-1.52304609e+01, +4.59562331e-01
-1.54308617e+01, +2.73568915e-01
-1.56312625e+01, +7.66255599e-02
-1.58316633e+01, -1.23384830e-01
-1.60320641e+01, -3.18456587e-01
-1.62324649e+01, -5.00781719e-01
-1.64328657e+01, -6.63062434e-01
-1.66332665e+01, -7.98803242e-01
-1.68336673e+01, -9.02570947e-01
-1.70340681e+01, -9.70212117e-01
-1.72344689e+01, -9.99019329e-01
-1.74348697e+01, -9.87839538e-01
-1.76352705e+01, -9.37120228e-01
-1.78356713e+01, -8.48891505e-01
-1.8036

File: XRD_T2T_dataFile.dat
1E1 1E0
1.001E1 3E0
1.005E1 6E0
1.009E1 4E0
1.013E1 2E0
1.017E1 5E0
1.021E1 3E0
1.025E1 2E0
1.029E1 2E0
1.033E1 1E0
1.037E1 3E0
1.041E1 1E0
1.045E1 2E0
1.049E1 1E0
1.053E1 1E0
1.057E1 5E0
1.061E1 5E0
1.065E1 5E0
1.069E1 7E0
1.073E1 5E0
1.077E1 2E0
1.081E1 2E0
1.085E1 3E0
1.089E1 3E0
1.093E1 3E0
1.097E1 5E0
1.101E1 2E0
1.105E1 5E0
1.109E1 1E0
1.113E1 6E0
1.117E1 5E0
1.121E1 5E0
1.125E1 3E0
1.129E1 3E0
1.133E1 3E0
1.137E1 4E0
1.141E1 5E0
1.145E1 2E0
1.149E1 4E0
1.153E1 3E0
1.157E1 1E0
1.161E1 2E0
1.165E1 2E0
1.169E1 2E0
1.173E1 2E0
1.177E1 3E0
1.181E1 3E0
1.185E1 6E0
1.189E1 2E0
1.193E1 2E0
1.197E1 2E0
1.201E1 5E0
1.205E1 2E0
1.209E1 1E0
1.213E1 4E0
1.217E1 4E0
1.221E1 3E0
1.225E1 5E0
1.229E1 2E0
1.233E1 3E0
1.237E1 5E0
1.241E1 4E0
1.245E1 3E0
1.249E1 1E0
1.253E1 1E0
1.257E1 4E0
1.261E1 1E0
1.265E1 3E0
1.269E1 1E0
1.273E1 3E0
1.277E1 1E0
1.281E1 5E0
1.285E1 2E0
1.289E1 3E0
1.293E1 1E0
1.297E1 2E0
1.301E1 4E0
1.305E1 4E0
1.309E1 1E0
1.313E1 4E0
1.317E1 2E0
1.321E1 6E0
1.325E1 4E0
1.329E1 1E0
1.333E1 1E0
1.337E1 1E0
1.341E1 2E0
1.345E1 1E0
1.349E1 4E0
1.353E1 2E0
1.357E1 1E0
1.361E1 2E0
1.365E1 2E0
1.369E1 1E0
1.373E1 3E0
1.377E1 1E0
1.381E1 2E0
1.385E1 4E0
1.389E1 2E0
1.393E1 4E0
1.397E1 4E0
1.401E1 3E0
1.405E1 3E0
1.409E1 2E0
1.413E1 1E0
1.417E1 2E0
1.421E1 1E0
1.425E1 3E0
1.429E1 5E0
1.433E1 4E0
1.437E1 2E0
1.441E1 1E0
1.445E1 4E0
1.449E1 6E0
1.453E1 8E0
1.457E1 3.4E1
1.461E1 6.3E1
1.465E1 4.1E1
1.469E1 2.7E1
1.473E1 9E0
1.477E1 2E0
1.481E1 1E0
1.485E1 3E0
1.489E1 4E0
1.493E1 4E0
1.497E1 1E0
1.501E1 2E0
1.505E1 3E0
1.509E1 2E0
1.513E1 4E0
1.517E1 2E0
1.521E1 2E0
1.525E1 2E0
1.529E1 2E0
1.533E1 4E0
1.537E1 2E0
1.541E1 2E0
1.545E1 3E0
1.549E1 1E0
1.553E1 2E0
1.557E1 4E0
1.561E1 6E0
1.565E1 1E0
1.569E1 3E0
1.573E1 1E0
1.577E1 1E0
1.581E1 3E0
1.585E1 3E0
1.589E1 2E0
1.593E1 1E0
1.597E1 1E0
1.601E1 2E0
1.605E1 1E0
1.609E1 4E0
1.613E1 3E0
1.617E1 3E0
1.621E1 5E0
1.625E1 3E0
1.629E1 1E0
1.633E1 1E0
1.637E1 2E0
1.641E1 4E0
1.645E1 2E0
1.649E1 1E0
1.653E1 3E0
1.657E1 8E0
1.661E1 2E0
1.665E1 4E0
1.669E1 2E0
1.673E1 3E0
1.677E1 3E0
1.681E1 2E0
1.685E1 2E0
1.689E1 4E0
1.693E1 3E0
1.697E1 1E0
1.701E1 4E0
1.705E1 4E0
1.709E1 1E0
1.713E1 2E0
1.717E1 1E0
1.721E1 2E0
1.725E1 2E0
1.729E1 1E0
1.733E1 1E0
1.737E1 3E0
1.741E1 2E0
1.745E1 4E0
1.749E1 1E0
1.753E1 3E0
1.757E1 1E0
1.761E1 2E0
1.765E1 1E0
1.769E1 1E0
1.773E1 2E0
1.777E1 1E0
1.781E1 3E0
1.785E1 1E0
1.789E1 1E0
1.793E1 1E0
1.797E1 1E0
1.801E1 3E0
1.805E1 3E0
1.809E1 1E0
1.813E1 2E0
1.817E1 1E0
1.821E1 1E0
1.825E1 1E0
1.829E1 1E0
1.833E1 3E0
1.837E1 1E0
1.841E1 2E0
1.845E1 2E0
1.849E1 2E0
1.853E1 2E0
1.857E1 1E0
1.861E1 2E0
1.865E1 6E0
1.869E1 1E0
1.873E1 2E0
1.877E1 5E0
1.881E1 3E0
1.885E1 3E0
1.889E1 6E0
1.893E1 1E0
1.897E1 2E0
1.901E1 1E0
1.905E1 3E0
1.909E1 5E0
1.913E1 4E0
1.917E1 5E0
1.921E1 2E0
1.925E1 5E0
1.929E1 1E0
1.933E1 1E0
1.937E1 1E0
1.941E1 3E0
1.945E1 1E0
1.949E1 3E0
1.953E1 4E0
1.957E1 1E0
1.961E1 2E0
1.965E1 2E0
1.969E1 2E0
1.973E1 1E0
1.977E1 3E0
1.981E1 3E0
1.985E1 4E0
1.989E1 3E0
1.993E1 2E0
1.997E1 3E0
1.999E1 2E0
2E1 2E0
2.001E1 5E0
2.005E1 4E0
2.009E1 5E0
2.013E1 3E0
2.017E1 2E0
2.021E1 3E0
2.025E1 4E0
2.029E1 3E0
2.033E1 4E0
2.037E1 2E0
2.041E1 3E0
2.045E1 1E0
2.049E1 2E0
2.053E1 2E0
2.057E1 2E0
2.061E1 2E0
2.065E1 1E0
2.069E1 5E0
2.073E1 5E0
2.077E1 1E0
2.081E1 1E0
2.085E1 2E0
2.089E1 3E0
2.093E1 1E0
2.097E1 2E0
2.101E1 3E0
2.105E1 3E0
2.109E1 3E0
2.113E1 3E0
2.117E1 4E0
2.121E1 3E0
2.125E1 6E0
2.129E1 1E0
2.133E1 3E0
2.137E1 1E0
2.141E1 3E0
2.145E1 7E0
2.149E1 3E0
2.153E1 1E0
2.157E1 1E0
2.161E1 4E0
2.165E1 1E0
2.169E1 1E0
2.173E1 2E0
2.177E1 4E0
2.181E1 2E0
2.185E1 8E0
2.189E1 5E0
2.193E1 3E0
2.197E1 6E0
2.201E1 2E0
2.205E1 4E0
2.209E1 1E0
2.213E1 5E0
2.217E1 1E0
2.221E1 4E0
2.225E1 2E0
2.229E1 2E0
2.233E1 4E0
2.237E1 3E0
2.241E1 3E0
2.245E1 2E0
2.249E1 3E0
2.253E1 3E0
2.257E1 1E0
2.261E1 3E0
2.265E1 3E0
2.269E1 1E0
2.273E1 1E0
2.277E1 1E0
2.281E1 1E0
2.285E1 3E0
2.289E1 7E0
2.293E1 5E0
2.297E1 2.76E2
2.301E1 1.246E3
2.305E1 1.5E1
2.309E1 5E0
2.313E1 8E0
2.317E1 3E0
2.321E1 2E0
2.325E1 2E0
2.329E1 5E0
2.333E1 1E0
2.337E1 7E0
2.341E1 4E0
2.345E1 2E0
2.349E1 6E0
2.353E1 6E0
2.357E1 1E0
2.361E1 2E0
2.365E1 2E0
2.369E1 1E0
2.373E1 2E0
2.377E1 1E0
2.381E1 1E0
2.385E1 3E0
2.389E1 1E0
2.393E1 4E0
2.397E1 1E0
2.401E1 3E0
2.405E1 3E0
2.409E1 1E0
2.413E1 5E0
2.417E1 2E0
2.421E1 2E0
2.425E1 5E0
2.429E1 3E0
2.433E1 3E0
2.437E1 1E0
2.441E1 1E1
2.445E1 1E0
2.449E1 2E0
2.453E1 6E0
2.457E1 3E0
2.461E1 2E0
2.465E1 3E0
2.469E1 4E0
2.473E1 1E0
2.477E1 1E0
2.481E1 2E0
2.485E1 1E0
2.489E1 3E0
2.493E1 1E0
2.497E1 2E0
2.501E1 5E0
2.505E1 2E0
2.509E1 1E0
2.513E1 5E0
2.517E1 2E0
2.521E1 1E0
2.525E1 2E0
2.529E1 1E0
2.533E1 4E0
2.537E1 2E0
2.541E1 1E0
2.545E1 2E0
2.549E1 1E0
2.553E1 2E0
2.557E1 3E0
2.561E1 1E0
2.565E1 1E0
2.569E1 1E0
2.573E1 1E0
2.577E1 1E0
2.581E1 1E0
2.585E1 2E0
2.589E1 3E0
2.593E1 2E0
2.597E1 5E0
2.601E1 3E0
2.605E1 1E0
2.609E1 4E0
2.613E1 2E0
2.617E1 1E0
2.621E1 4E0
2.625E1 2E0
2.629E1 1E0
2.633E1 3E0
2.637E1 4E0
2.641E1 3E0
2.645E1 7E0
2.649E1 4E0
2.653E1 2E0
2.657E1 1E0
2.661E1 1E0
2.665E1 5E0
2.669E1 4E0
2.673E1 1E0
2.677E1 1E0
2.681E1 4E0
2.685E1 5E0
2.689E1 1E0
2.693E1 1E0
2.697E1 2E0
2.701E1 3E0
2.705E1 1E0
2.709E1 1E0
2.713E1 4E0
2.717E1 1E0
2.721E1 3E0
2.725E1 2E0
2.729E1 4E0
2.733E1 2E0
2.737E1 1E0
2.741E1 3E0
2.745E1 1E0
2.749E1 5E0
2.753E1 4E0
2.757E1 4E0
2.761E1 3E0
2.765E1 1E0
2.769E1 1E0
2.773E1 1E0
2.777E1 2E0
2.781E1 1E0
2.785E1 4E0
2.789E1 4E0
2.793E1 2E0
2.797E1 7E0
2.801E1 5E0
2.805E1 2E0
2.809E1 3E0
2.813E1 1E0
2.817E1 4E0
2.821E1 2E0
2.825E1 3E0
2.829E1 3E0
2.833E1 1E0
2.837E1 1E0
2.841E1 4E0
2.845E1 1E0
2.849E1 2E0
2.853E1 2E0
2.857E1 4E0
2.861E1 2E0
2.865E1 4E0
2.869E1 3E0
2.873E1 2E0
2.877E1 4E0
2.881E1 4E0
2.885E1 4E0
2.889E1 4E0
2.893E1 2E0
2.897E1 1E0
2.901E1 8E0
2.905E1 3E0
2.909E1 5E0
2.913E1 7E0
2.917E1 5E0
2.921E1 5E0
2.925E1 1.5E1
2.929E1 1.8E1
2.933E1 2.3E1
2.937E1 9.1E1
2.941E1 2.12E2
2.945E1 2.95E2
2.949E1 2.9E2
2.953E1 1.33E2
2.957E1 6.1E1
2.961E1 1.7E1
2.965E1 1.9E1
2.969E1 7E0
2.973E1 5E0
2.977E1 4E0
2.981E1 5E0
2.985E1 6E0
2.989E1 1E0
2.993E1 3E0
2.997E1 3E0
2.999E1 2E0
3E1 3E0
3.001E1 3E0
3.005E1 8E0
3.009E1 3E0
3.013E1 3E0
3.017E1 8E0
3.021E1 1E0
3.025E1 2E0
3.029E1 4E0
3.033E1 4E0
3.037E1 4E0
3.041E1 6E0
3.045E1 3E0
3.049E1 3E0
3.053E1 3E0
3.057E1 3E0
3.061E1 1E0
3.065E1 4E0
3.069E1 1E0
3.073E1 1E0
3.077E1 3E0
3.081E1 3E0
3.085E1 3E0
3.089E1 1E0
3.093E1 1E0
3.097E1 3E0
3.101E1 6E0
3.105E1 1E0
3.109E1 1E0
3.113E1 2E0
3.117E1 1E0
3.121E1 1E0
3.125E1 2E0
3.129E1 4E0
3.133E1 1E0
3.137E1 4E0
3.141E1 4E0
3.145E1 2E0
3.149E1 4E0
3.153E1 5E0
3.157E1 4E0
3.161E1 7E0
3.165E1 2E0
3.169E1 2E0
3.173E1 6E0
3.177E1 5E0
3.181E1 5E0
3.185E1 4E0
3.189E1 3E0
3.193E1 1E0
3.197E1 5E0
3.201E1 4E0
3.205E1 3E0
3.209E1 2E0
3.213E1 1E0
3.217E1 3E0
3.221E1 1E0
3.225E1 6E0
3.229E1 3E0
3.233E1 5E0
3.237E1 1E0
3.241E1 5E0
3.245E1 2E0
3.249E1 7E0
3.253E1 3E0
3.257E1 2E0
3.261E1 5E0
3.265E1 2E0
3.269E1 2E0
3.273E1 3E0
3.277E1 7E0
3.281E1 5E0
3.285E1 3E0
3.289E1 4E0
3.293E1 4E0
3.297E1 2E0
3.301E1 2E0
3.305E1 3E0
3.309E1 2E0
3.313E1 2E0
3.317E1 3E0
3.321E1 1E0
3.325E1 3E0
3.329E1 3E0
3.333E1 2E0
3.337E1 2E0
3.341E1 3E0
3.345E1 4E0
3.349E1 3E0
3.353E1 2E0
3.357E1 1E0
3.361E1 1E0
3.365E1 3E0
3.369E1 1E0
3.373E1 1E0
3.377E1 2E0
3.381E1 2E0
3.385E1 3E0
3.389E1 5E0
3.393E1 1E0
3.397E1 1E0
3.401E1 4E0
3.405E1 2E0
3.409E1 1E0
3.413E1 2E0
3.417E1 1E0
3.421E1 1E0
3.425E1 1E0
3.429E1 1E0
3.433E1 3E0
3.437E1 2E0
3.441E1 1E0
3.445E1 3E0
3.449E1 1E0
3.453E1 2E0
3.457E1 1E0
3.461E1 3E0
3.465E1 1E0
3.469E1 1E0
3.473E1 5E0
3.477E1 1E0
3.481E1 2E0
3.485E1 4E0
3.489E1 1E0
3.493E1 2E0
3.497E1 1E0
3.501E1 3E0
3.505E1 1E0
3.509E1 1E0
3.513E1 1E0
3.517E1 1E0
3.521E1 4E0
3.525E1 2E0
3.529E1 1E0
3.533E1 1E0
3.537E1 3E0
3.541E1 2E0
3.545E1 1E0
3.549E1 1E0
3.553E1 1E0
3.557E1 3E0
3.561E1 1E0
3.565E1 2E0
3.569E1 2E0
3.573E1 2E0
3.577E1 2E0
3.581E1 1E0
3.585E1 1E0
3.589E1 1E0
3.593E1 1E0
3.597E1 3E0
3.601E1 1E0
3.605E1 2E0
3.609E1 3E0
3.613E1 1E0
3.617E1 1E0
3.621E1 1E0
3.625E1 1E0
3.629E1 3E0
3.633E1 4E0
3.637E1 1E0
3.641E1 1E0
3.645E1 1E0
3.649E1 4E0
3.653E1 1E0
3.657E1 1E0
3.661E1 1E0
3.665E1 1E0
3.669E1 1E0
3.673E1 1E0
3.677E1 1E0
3.681E1 2E0
3.685E1 1E0
3.689E1 1E0
3.693E1 1E0
3.697E1 1E0
3.701E1 2E0
3.705E1 1E0
3.709E1 1E0
3.713E1 1E0
3.717E1 1E0
3.721E1 1E0
3.725E1 1E0
3.729E1 1E0
3.733E1 1E0
3.737E1 1E0
3.741E1 1E0
3.745E1 1E0
3.749E1 4E0
3.753E1 3E0
3.757E1 1E0
3.761E1 1E0
3.765E1 1E0
3.769E1 4E0
3.773E1 1E0
3.777E1 1E0
3.781E1 1E0
3.785E1 1E0
3.789E1 1E0
3.793E1 1E0
3.797E1 1E0
3.801E1 1E0
3.805E1 2E0
3.809E1 1E0
3.813E1 1E0
3.817E1 1E0
3.821E1 3E0
3.825E1 1E0
3.829E1 1E0
3.833E1 2E0
3.837E1 1E0
3.841E1 1E0
3.845E1 2E0
3.849E1 2E0
3.853E1 3E0
3.857E1 1E0
3.861E1 2E0
3.865E1 2E0
3.869E1 1E0
3.873E1 1E0
3.877E1 1E0
3.881E1 1E0
3.885E1 1E0
3.889E1 1E0
3.893E1 1E0
3.897E1 2E0
3.901E1 1E0
3.905E1 2E0
3.909E1 1E0
3.913E1 1E0
3.917E1 3E0
3.921E1 2E0
3.925E1 2E0
3.929E1 1E0
3.933E1 1E0
3.937E1 1E0
3.941E1 1E0
3.945E1 2E0
3.949E1 1E0
3.953E1 4E0
3.957E1 1E0
3.961E1 2E0
3.965E1 1E0
3.969E1 1E0
3.973E1 1E0
3.977E1 1E0
3.981E1 1E0
3.985E1 3E0
3.989E1 1E0
3.993E1 1E0
3.997E1 1E0
3.999E1 1E0
4E1 1E0
4.001E1 1E0
4.005E1 1E0
4.009E1 1E0
4.013E1 2E0
4.017E1 2E0
4.021E1 1E0
4.025E1 1E0
4.029E1 1E0
4.033E1 1E0
4.037E1 1E0
4.041E1 2E0
4.045E1 1E0
4.049E1 3E0
4.053E1 1E0
4.057E1 1E0
4.061E1 2E0
4.065E1 1E0
4.069E1 1E0
4.073E1 1E0
4.077E1 1E0
4.081E1 2E0
4.085E1 2E0
4.089E1 1E0
4.093E1 2E0
4.097E1 2E0
4.101E1 3E0
4.105E1 1E0
4.109E1 3E0
4.113E1 1E0
4.117E1 1E0
4.121E1 1E0
4.125E1 1E0
4.129E1 1E0
4.133E1 3E0
4.137E1 1E0
4.141E1 3E0
4.145E1 1E0
4.149E1 1E0
4.153E1 2E0
4.157E1 1E0
4.161E1 1E0
4.165E1 4E0
4.169E1 1E0
4.173E1 2E0
4.177E1 2E0
4.181E1 1E0
4.185E1 2E0
4.189E1 2E0
4.193E1 1E0
4.197E1 3E0
4.201E1 1E0
4.205E1 1E0
4.209E1 8E0
4.213E1 1E0
4.217E1 2E0
4.221E1 1E0
4.225E1 3E0
4.229E1 2E0
4.233E1 1E0
4.237E1 2E0
4.241E1 3E0
4.245E1 2E0
4.249E1 1E0
4.253E1 4E0
4.257E1 2E0
4.261E1 1E0
4.265E1 3E0
4.269E1 1E0
4.273E1 2E0
4.277E1 2E0
4.281E1 3E0
4.285E1 2E0
4.289E1 1E0
4.293E1 1E0
4.297E1 3E0
4.301E1 1E0
4.305E1 2E0
4.309E1 1E0
4.313E1 2E0
4.317E1 3E0
4.321E1 1E0
4.325E1 3E0
4.329E1 2E0
4.333E1 6E0
4.337E1 6E0
4.341E1 5E0
4.345E1 4E0
4.349E1 3E0
4.353E1 3E0
4.357E1 2E0
4.361E1 1E0
4.365E1 3E0
4.369E1 2E0
4.373E1 2E0
4.377E1 4E0
4.381E1 2E0
4.385E1 3E0
4.389E1 4E0
4.393E1 1E0
4.397E1 5E0
4.401E1 3E0
4.405E1 4E0
4.409E1 4E0
4.413E1 3E0
4.417E1 7E0
4.421E1 2E0
4.425E1 3E0
4.429E1 8E0
4.433E1 7E0
4.437E1 2E0
4.441E1 2E0
4.445E1 9E0
4.449E1 1E1
4.453E1 1.7E1
4.457E1 1.8E1
4.461E1 3.8E1
4.465E1 5E1
4.469E1 1.15E2
4.473E1 2.47E2
4.477E1 4.03E2
4.481E1 4.98E2
4.485E1 4.16E2
4.489E1 2.82E2
4.493E1 1.35E2
4.497E1 5.2E1
4.501E1 3.8E1
4.505E1 2.9E1
4.509E1 1.6E1
4.513E1 1.1E1
4.517E1 1.6E1
4.521E1 1.3E1
4.525E1 1.1E1
4.529E1 5E0
4.533E1 8E0
4.537E1 4E0
4.541E1 7E0
4.545E1 3E0
4.549E1 7E0
4.553E1 3E0
4.557E1 6E0
4.561E1 4E0
4.565E1 6E0
4.569E1 5E0
4.573E1 5E0
4.577E1 5E0
4.581E1 9E0
4.585E1 1E1
4.589E1 8E0
4.593E1 8E0
4.597E1 6E0
4.601E1 1.3E1
4.605E1 8E0
4.609E1 6E0
4.613E1 1E1
4.617E1 6E0
4.621E1 1.1E1
4.625E1 1E1
4.629E1 1.7E1
4.633E1 1.4E1
4.637E1 1.2E1
4.641E1 1.3E1
4.645E1 2.2E1
4.649E1 2.7E1
4.653E1 2.1E1
4.657E1 2.9E1
4.661E1 4.3E1
4.665E1 6.6E1
4.669E1 8.5E1
4.673E1 1.16E2
4.677E1 2.12E2
4.681E1 3.28E2
4.685E1 7.83E2
4.689E1 3.703E3
4.693E1 5.7967E5
4.697E1 1.7065E5
4.701E1 3.105E3
4.705E1 1.407E3
4.709E1 7.22E2
4.713E1 2.02E2
4.717E1 8.4E1
4.721E1 6E1
4.725E1 4.2E1
4.729E1 3.2E1
4.733E1 3.2E1
4.737E1 1E1
4.741E1 1.7E1
4.745E1 1E1
4.749E1 1E1
4.753E1 8E0
4.757E1 9E0
4.761E1 7E0
4.765E1 4E0
4.769E1 5E0
4.773E1 7E0
4.777E1 4E0
4.781E1 1E0
4.785E1 3E0
4.789E1 3E0
4.793E1 8E0
4.797E1 2E0
4.801E1 4E0
4.805E1 2E0
4.809E1 2E0
4.813E1 4E0
4.817E1 1E0
4.821E1 3E0
4.825E1 2E0
4.829E1 3E0
4.833E1 1E0
4.837E1 3E0
4.841E1 2E0
4.845E1 3E0
4.849E1 1E0
4.853E1 2E0
4.857E1 2E0
4.861E1 2E0
4.865E1 1E0
4.869E1 2E0
4.873E1 1E0
4.877E1 2E0
4.881E1 1E0
4.885E1 1E0
4.889E1 4E0
4.893E1 1E0
4.897E1 2E0
4.901E1 1E0
4.905E1 2E0
4.909E1 1E0
4.913E1 1E0
4.917E1 1E0
4.921E1 1E0
4.925E1 1E0
4.929E1 1E0
4.933E1 2E0
4.937E1 1E0
4.941E1 3E0
4.945E1 1E0
4.949E1 2E0
4.953E1 4E0
4.957E1 1E0
4.961E1 1E0
4.965E1 1E0
4.969E1 1E0
4.973E1 1E0
4.977E1 2E0
4.981E1 1E0
4.985E1 1E0
4.989E1 1E0
4.993E1 1E0
4.997E1 1E0
4.999E1 1E0
5E1 3E0
5.001E1 2E0
5.005E1 1E0
5.009E1 1E0
5.013E1 1E0
5.017E1 1E0
5.021E1 1E0
5.025E1 2E0
5.029E1 3E0
5.033E1 1E0
5.037E1 1E0
5.041E1 1E0
5.045E1 1E0
5.049E1 2E0
5.053E1 1E0
5.057E1 1E0
5.061E1 1E0
5.065E1 1E0
5.069E1 2E0
5.073E1 1E0
5.077E1 1E0
5.081E1 1E0
5.085E1 1E0
5.089E1 1E0
5.093E1 1E0
5.097E1 5E0
5.101E1 2E0
5.105E1 2E0
5.109E1 1E0
5.113E1 1E0
5.117E1 1E0
5.121E1 1E0
5.125E1 1E0
5.129E1 1E0
5.133E1 2E0
5.137E1 1E0
5.141E1 1E0
5.145E1 1E0
5.149E1 1E0
5.153E1 2E0
5.157E1 1E0
5.161E1 1E0
5.165E1 1E0
5.169E1 3E0
5.173E1 1E0
5.177E1 1E0
5.181E1 1E0
5.185E1 1E0
5.189E1 2E0
5.193E1 2E0
5.197E1 1E0
5.201E1 3E0
5.205E1 1E0
5.209E1 1E0
5.213E1 1E0
5.217E1 1E0
5.221E1 1E0
5.225E1 1E0
5.229E1 2E0
5.233E1 1E0
5.237E1 1E0
5.241E1 1E0
5.245E1 1E0
5.249E1 1E0
5.253E1 2E0
5.257E1 1E0
5.261E1 1E0
5.265E1 1E0
5.269E1 3E0
5.273E1 1E0
5.277E1 1E0
5.281E1 3E0
5.285E1 1E0
5.289E1 2E0
5.293E1 2E0
5.297E1 1E0
5.301E1 1E0
5.305E1 1E0
5.309E1 1E0
5.313E1 1E0
5.317E1 3E0
5.321E1 1E0
5.325E1 1E0
5.329E1 1E0
5.333E1 1E0
5.337E1 1E0
5.341E1 1E0
5.345E1 1E0
5.349E1 2E0
5.353E1 1E0
5.357E1 1E0
5.361E1 1E0
5.365E1 1E0
5.369E1 1E0
5.373E1 2E0
5.377E1 1E0
5.381E1 2E0
5.385E1 1E0
5.389E1 1E0
5.393E1 3E0
5.397E1 1E0
5.401E1 1E0
5.405E1 1E0
5.409E1 1E0
5.413E1 1E0
5.417E1 1E0
5.421E1 2E0
5.425E1 1E0
5.429E1 1E0
5.433E1 2E0
5.437E1 1E0
5.441E1 1E0
5.445E1 1E0
5.449E1 1E0
5.453E1 1E0
5.457E1 1E0
5.461E1 3E0
5.465E1 1E0
5.469E1 3E0
5.473E1 2E0
5.477E1 1E0
5.481E1 1E0
5.485E1 3E0
5.489E1 1E0
5.493E1 1E0
5.497E1 1E0
5.501E1 1E0
5.505E1 1E0
5.509E1 1E0
5.513E1 2E0
5.517E1 1E0
5.521E1 2E0
5.525E1 1E0
5.529E1 2E0
5.533E1 1E0
5.537E1 1E0
5.541E1 1E0
5.545E1 1E0
5.549E1 1E0
5.553E1 1E0
5.557E1 2E0
5.561E1 1E0
5.565E1 1E0
5.569E1 1E0
5.573E1 2E0
5.577E1 1E0
5.581E1 2E0
5.585E1 2E0
5.589E1 1E0
5.593E1 1E0
5.597E1 1E0
5.601E1 1E0
5.605E1 2E0
5.609E1 1E0
5.613E1 1E0
5.617E1 1E0
5.621E1 1E0
5.625E1 1E0
5.629E1 2E0
5.633E1 1E0
5.637E1 1E0
5.641E1 2E0
5.645E1 1E0
5.649E1 1E0
5.653E1 1E0
5.657E1 1E0
5.661E1 1E0
5.665E1 1E0
5.669E1 2E0
5.673E1 2E0
5.677E1 1E0
5.681E1 1E0
5.685E1 2E0
5.689E1 1E0
5.693E1 1E0
5.697E1 2E0
5.701E1 1E0
5.705E1 1E0
5.709E1 1E0
5.713E1 1E0
5.717E1 1E0
5.721E1 1E0
5.725E1 1E0
5.729E1 1E0
5.733E1 1E0
5.737E1 1E0
5.741E1 1E0
5.745E1 1E0
5.749E1 2E0
5.753E1 1E0
5.757E1 2E0
5.761E1 1E0
5.765E1 1E0
5.769E1 1E0
5.773E1 1E0
5.777E1 1E0
5.781E1 2E0
5.785E1 1E0
5.789E1 1E0
5.793E1 1E0
5.797E1 1E0
5.801E1 1E0
5.805E1 1E0
5.809E1 1E0
5.813E1 1E0
5.817E1 3E0
5.821E1 1E0
5.825E1 4E0
5.829E1 1E0
5.833E1 1E0
5.837E1 1E0
5.841E1 2E0
5.845E1 1E0
5.849E1 4E0
5.853E1 1E0
5.857E1 2E0
5.861E1 1E0
5.865E1 1E0
5.869E1 1E0
5.873E1 1E0
5.877E1 1E0
5.881E1 2E0
5.885E1 1E0
5.889E1 1E0
5.893E1 1E0
5.897E1 1E0
5.901E1 1E0
5.905E1 1E0
5.909E1 1E0
5.913E1 1E0
5.917E1 1E0
5.921E1 1E0
5.925E1 1E0
5.929E1 1E0
5.933E1 2E0
5.937E1 2E0
5.941E1 2E0
5.945E1 1E0
5.949E1 3E0
5.953E1 1E0
5.957E1 1E0
5.961E1 1E0
5.965E1 1E0
5.969E1 1E0
5.973E1 2E0
5.977E1 1E0
5.981E1 1E0
5.985E1 1E0
5.989E1 2E0
5.993E1 2E0
5.997E1 1E0
5.999E1 1E0
6E1 1E0
6.001E1 1E0
6.005E1 1E0
6.009E1 1E0
6.013E1 1E0
6.017E1 1E0
6.021E1 2E0
6.025E1 1E0
6.029E1 2E0
6.033E1 1E0
6.037E1 1E0
6.041E1 1E0
6.045E1 1E0
6.049E1 4E0
6.053E1 3E0
6.057E1 3E0
6.061E1 2E0
6.065E1 1E0
6.069E1 6E0
6.073E1 5E0
6.077E1 7E0
6.081E1 1E1
6.085E1 1.6E1
6.089E1 1.6E1
6.093E1 2.6E1
6.097E1 3.7E1
6.101E1 8.3E1
6.105E1 1.13E2
6.109E1 1.27E2
6.113E1 1.01E2
6.117E1 5.1E1
6.121E1 3.4E1
6.125E1 2.4E1
6.129E1 1.1E1
6.133E1 9E0
6.137E1 4E0
6.141E1 4E0
6.145E1 3E0
6.149E1 5E0
6.153E1 3E0
6.157E1 5E0
6.161E1 3E0
6.165E1 1E0
6.169E1 2E0
6.173E1 1E0
6.177E1 1E0
6.181E1 1E0
6.185E1 1E0
6.189E1 3E0
6.193E1 1E0
6.197E1 1E0
6.201E1 1E0
6.205E1 1E0
6.209E1 2E0
6.213E1 1E0
6.217E1 3E0
6.221E1 1E0
6.225E1 1E0
6.229E1 1E0
6.233E1 1E0
6.237E1 1E0
6.241E1 3E0
6.245E1 1E0
6.249E1 1E0
6.253E1 1E0
6.257E1 1E0
6.261E1 1E0
6.265E1 3E0
6.269E1 1E0
6.273E1 1E0
6.277E1 3E0
6.281E1 3E0
6.285E1 4E0
6.289E1 1E0
6.293E1 2E0
6.297E1 1E0
6.301E1 1E0
6.305E1 1E0
6.309E1 1E0
6.313E1 2E0
6.317E1 1E0
6.321E1 1E0
6.325E1 1E0
6.329E1 1E0
6.333E1 1E0
6.337E1 1E0
6.341E1 1E0
6.345E1 1E0
6.349E1 1E0
6.353E1 1E0
6.357E1 1E0
6.361E1 2E0
6.365E1 1E0
6.369E1 1E0
6.373E1 1E0
6.377E1 1E0
6.381E1 4E0
6.385E1 1E0
6.389E1 1E0
6.393E1 1E0
6.397E1 1E0
6.401E1 1E0
6.405E1 1E0
6.409E1 2E0
6.413E1 1E0
6.417E1 1E0
6.421E1 1E0
6.425E1 1E0
6.429E1 1E0
6.433E1 1E0
6.437E1 3E0
6.441E1 1E0
6.445E1 2E0
6.449E1 1E0
6.453E1 1E0
6.457E1 1E0
6.461E1 1E0
6.465E1 2E0
6.469E1 1E0
6.473E1 1E0
6.477E1 1E0
6.481E1 1E0
6.485E1 2E0
6.489E1 1E0
6.493E1 1E0
6.497E1 1E0
6.501E1 1E0
6.505E1 1E0
6.509E1 1E0
6.513E1 3E0
6.517E1 1E0
6.521E1 1E0
6.525E1 1E0
6.529E1 1E0
6.533E1 1E0
6.537E1 1E0
6.541E1 1E0
6.545E1 3E0
6.549E1 1E0
6.553E1 1E0
6.557E1 1E0
6.561E1 1E0
6.565E1 1E0
6.569E1 1E0
6.573E1 3E0
6.577E1 1E0
6.581E1 1E0
6.585E1 1E0
6.589E1 1E0
6.593E1 1E0
6.597E1 1E0
6.601E1 1E0
6.605E1 1E0
6.609E1 1E0
6.613E1 1E0
6.617E1 1E0
6.621E1 1E0
6.625E1 1E0
6.629E1 1E0
6.633E1 1E0
6.637E1 1E0
6.641E1 1E0
6.645E1 1E0
6.649E1 1E0
6.653E1 1E0
6.657E1 1E0
6.661E1 1E0
6.665E1 1E0
6.669E1 1E0
6.673E1 1E0
6.677E1 2E0
6.681E1 1E0
6.685E1 3E0
6.689E1 1E0
6.693E1 1E0
6.697E1 2E0
6.701E1 2E0
6.705E1 3E0
6.709E1 1E0
6.713E1 1E0
6.717E1 1E0
6.721E1 1E0
6.725E1 1E0
6.729E1 1E0
6.733E1 2E0
6.737E1 2E0
6.741E1 1E0
6.745E1 2E0
6.749E1 1E0
6.753E1 5E0
6.757E1 1E0
6.761E1 1E0
6.765E1 2E0
6.769E1 1E0
6.773E1 1E0
6.777E1 1E0
6.781E1 2E0
6.785E1 2E0
6.789E1 1E0
6.793E1 1E0
6.797E1 1E0
6.801E1 1E0
6.805E1 1E0
6.809E1 1E0
6.813E1 2E0
6.817E1 1E0
6.821E1 2E0
6.825E1 1E0
6.829E1 1E0
6.833E1 2E0
6.837E1 1E0
6.841E1 1E0
6.845E1 2E0
6.849E1 1E0
6.853E1 2E0
6.857E1 1E0
6.861E1 1E0
6.865E1 2E0
6.869E1 2E0
6.873E1 1E0
6.877E1 1E0
6.881E1 1E0
6.885E1 3E0
6.889E1 1E0
6.893E1 1E0
6.897E1 1E0
6.901E1 1E0
6.905E1 1E0
6.909E1 1E0
6.913E1 1E0
6.917E1 1E0
6.921E1 1E0
6.925E1 1E0
6.929E1 3E0
6.933E1 1E0
6.937E1 1E0
6.941E1 1E0
6.945E1 3E0
6.949E1 1E0
6.953E1 1E0
6.957E1 1E0
6.961E1 1E0
6.965E1 1E0
6.969E1 1E0
6.973E1 1E0
6.977E1 1E0
6.981E1 1E0
6.985E1 1E0
6.989E1 2E0
6.993E1 1E0
6.997E1 1E0
6.999E1 1E0
7E1 1E0
7.001E1 1E0
7.005E1 1E0
7.009E1 3E0
7.013E1 1E0
7.017E1 1E0
7.021E1 1E0
7.025E1 1E0
7.029E1 1E0
7.033E1 1E0
7.037E1 1E0
7.041E1 1E0
7.045E1 3E0
7.049E1 1E0
7.053E1 1E0
7.057E1 1E0
7.061E1 1E0
7.065E1 1E0
7.069E1 1E0
7.073E1 2E0
7.077E1 1E0
7.081E1 2E0
7.085E1 1E0
7.089E1 1E0
7.093E1 1E0
7.097E1 1E0
7.101E1 1E0
7.105E1 1E0
7.109E1 1E0
7.113E1 1E0
7.117E1 1E0
7.121E1 1E0
7.125E1 1E0
7.129E1 1E0
7.133E1 1E0
7.137E1 1E0
7.141E1 1E0
7.145E1 1E0
7.149E1 1E0
7.153E1 1E0
7.157E1 1E0
7.161E1 1E0
7.165E1 2E0
7.169E1 1E0
7.173E1 1E0
7.177E1 1E0
7.181E1 1E0
7.185E1 1E0
7.189E1 1E0
7.193E1 3E0
7.197E1 1E0
7.201E1 1E0
7.205E1 2E0
7.209E1 1E0
7.213E1 1E0
7.217E1 1E0
7.221E1 2E0
7.225E1 1E0
7.229E1 2E0
7.233E1 1E0
7.237E1 1E0
7.241E1 1E0
7.245E1 1E0
7.249E1 1E0
7.253E1 1E0
7.257E1 1E0
7.261E1 1E0
7.265E1 1E0
7.269E1 1E0
7.273E1 1E0
7.277E1 1E0
7.281E1 1E0
7.285E1 1E0
7.289E1 2E0
7.293E1 1E0
7.297E1 1E0
7.301E1 1E0
7.305E1 1E0
7.309E1 2E0
7.313E1 1E0
7.317E1 1E0
7.321E1 1E0
7.325E1 1E0
7.329E1 5E0
7.333E1 2.03E2
7.337E1 1.57E2
7.341E1 6E0
7.345E1 1E0
7.349E1 2E0
7.353E1 2E0
7.357E1 2E0
7.361E1 3E0
7.365E1 1E0
7.369E1 2E0
7.373E1 1E0
7.377E1 1E0
7.381E1 1E0
7.385E1 1E0
7.389E1 1E0
7.393E1 3E0
7.397E1 1E0
7.401E1 1E0
7.405E1 1E0
7.409E1 1E0
7.413E1 1E0
7.417E1 1E0
7.421E1 1E0
7.425E1 1E0
7.429E1 1E0
7.433E1 2E0
7.437E1 1E0
7.441E1 1E0
7.445E1 5E0
7.449E1 1E0
7.453E1 1E0
7.457E1 2E0
7.461E1 1E0
7.465E1 1E0
7.469E1 3E0
7.473E1 2E0
7.477E1 3E0
7.481E1 3E0
7.485E1 1E0
7.489E1 1E0
7.493E1 1E0
7.497E1 1E0
7.501E1 2E0
7.505E1 1E0
7.509E1 1E0
7.513E1 1E0
7.517E1 1E0
7.521E1 1E0
7.525E1 1E0
7.529E1 1E0
7.533E1 1E0
7.537E1 1E0
7.541E1 4E0
7.545E1 1E0
7.549E1 1E0
7.553E1 1E0
7.557E1 1E0
7.561E1 3E0
7.565E1 1E0
7.569E1 3E0
7.573E1 1E0
7.577E1 1E0
7.581E1 1E0
7.585E1 3E0
7.589E1 2E0
7.593E1 1E0
7.597E1 1E0
7.601E1 1E0
7.605E1 2E0
7.609E1 1E0
7.613E1 1E0
7.617E1 1E0
7.621E1 2E0
7.625E1 1E0
7.629E1 1E0
7.633E1 1E0
7.637E1 1E0
7.641E1 2E0
7.645E1 1E0
7.649E1 1E0
7.653E1 1E0
7.657E1 1E0
7.661E1 1E0
7.665E1 1E0
7.669E1 1E0
7.673E1 1E0
7.677E1 1E0
7.681E1 1E0
7.685E1 1E0
7.689E1 1E0
7.693E1 2E0
7.697E1 3E0
7.701E1 1E0
7.705E1 2E0
7.709E1 1E0
7.713E1 1E0
7.717E1 2E0
7.721E1 3E0
7.725E1 2E0
7.729E1 1E0
7.733E1 1E0
7.737E1 2E0
7.741E1 1E0
7.745E1 1E0
7.749E1 1E0
7.753E1 1E0
7.757E1 1E0
7.761E1 1E0
7.765E1 1E0
7.769E1 1E0
7.773E1 2E0
7.777E1 3E0
7.781E1 2E0
7.785E1 1E0
7.789E1 4E0
7.793E1 1E0
7.797E1 1E0
7.801E1 1E0
7.805E1 1E0
7.809E1 1E0
7.813E1 1E0
7.817E1 3E0
7.821E1 2E0
7.825E1 2E0
7.829E1 1E0
7.833E1 1E0
7.837E1 1E0
7.841E1 1E0
7.845E1 3E0
7.849E1 3E0
7.853E1 3E0
7.857E1 4E0
7.861E1 8E0
7.865E1 1.2E1
7.869E1 1.4E1
7.873E1 2.4E1
7.877E1 4.3E1
7.881E1 4.5E1
7.885E1 3.9E1
7.889E1 5.4E1
7.893E1 4.4E1
7.897E1 1.5E1
7.901E1 9E0
7.905E1 5E0
7.909E1 2E0
7.913E1 2E0
7.917E1 2E0
7.921E1 3E0
7.925E1 1E0
7.929E1 2E0
7.933E1 1E0
7.937E1 1E0
7.941E1 1E0
7.945E1 1E0
7.949E1 1E0
7.953E1 1E0
7.957E1 1E0
7.961E1 2E0
7.965E1 1E0
7.969E1 1E0
7.973E1 1E0
7.977E1 1E0
7.981E1 1E0
7.985E1 3E0
7.989E1 1E0
7.993E1 1E0
7.997E1 1E0
7.999E1 1E0
8E1 1E0